Folder: Material_Informatics

Note: Composition_Atomic_Fractions.json
[
    {
        "Alloy":"UNS R30003 Elgiloy",
        "Co":0.443864448,
        "Ni":0.173923685,
        "Cr":0.257676263,
        "Mo":0.053194908,
        "Mn":0.02903302,
        "Fe":0.0,
        "Si":0.027260378,
        "C":0.007967777,
        "W":0.0,
        "Be":0.007079521,
        "B":0.0,
        "Cu":0.0,
        "Ta":0.0,
        "Zr":0.0,
        "Al":0.0,
        "N":0.0,
        "Nb":0.0,
        "Ti":0.0,
        "V":0.0,
        "La":0.0,
        "P":0.0,
        "S":0.0
    },
    {
        "Alloy":"Stellite 6",
        "Co":0.516338772,
        "Ni":0.028279097,
        "Cr":0.308573524,
        "Mo":0.008649219,
        "Mn":0.010070656,
        "Fe":0.029721283,
        "Si":0.029549316,
        "C":0.0552755,
        "W":0.013542633,
        "Be":0.0,
        "B":0.0,
        "Cu":0.0,
        "Ta":0.0,
        "Zr":0.0,
        "Al":0.0,
        "N":0.0,
        "Nb":0.0,
        "Ti":0.0,
        "V":0.0,
        "La":0.0,
        "P":0.0,
        "S":0.0
    },
    {
        "Alloy":"Tribaloy T400",
        "Co":0.638809806,
        "Ni":0.0,
        "Cr":0.102571773,
        "Mo":0.18637118,
        "Mn":0.0,
        "Fe":0.0,
        "Si":0.067023283,
        "C":0.005223958,
        "W":0.0,
        "Be":0.0,
        "B":0.0,
        "Cu":0.0,
        "Ta":0.0,
        "Zr":0.0,
        "Al":0.0,
        "N":0.0,
        "Nb":0.0,
        "Ti":0.0,
        "V":0.0,
        "La":0.0,
        "P":0.0,
        "S":0.0
    },
    {
        "Alloy":"Stellite 21",
        "Co":0.562222279,
        "Ni":0.026312431,
        "Cr":0.291614032,
        "Mo":0.032190839,
        "Mn":0.010222138,
        "Fe":0.030168349,
        "Si":0.019995863,
        "C":0.011688948,
        "W":0.0,
        "Be":0.0,
        "B":0.01558512,
        "Cu":0.0,
        "Ta":0.0,
        "Zr":0.0,
        "Al":0.0,
        "N":0.0,
        "Nb":0.0,
        "Ti":0.0,
        "V":0.0,
        "La":0.0,
        "P":0.0,
        "S":0.0
    },
    {
        "Alloy":"Haynes 25 (L605)",
        "Co":0.534058795,
        "Ni":0.10724852,
        "Cr":0.242123909,
        "Mo":0.0,
        "Mn":0.01718684,
        "Fe":0.033815404,
        "Si":0.008965266,
        "C":0.00524081,
        "W":0.051360455,
        "Be":0.0,
        "B":0.0,
        "Cu":0.0,
        "Ta":0.0,
        "Zr":0.0,
        "Al":0.0,
        "N":0.0,
        "Nb":0.0,
        "Ti":0.0,
        "V":0.0,
        "La":0.0,
        "P":0.0,
        "S":0.0
    },
    {
        "Alloy":"MARM302",
        "Co":0.613034747,
        "Ni":0.0,
        "Cr":0.26208207,
        "Mo":0.0,
        "Mn":0.000576854,
        "Fe":0.008512277,
        "Si":0.002256807,
        "C":0.044854761,
        "W":0.034476945,
        "Be":0.0,
        "B":0.000293166,
        "Cu":0.000997426,
        "Ta":0.031525349,
        "Zr":0.0013896,
        "Al":0.0,
        "N":0.0,
        "Nb":0.0,
        "Ti":0.0,
        "V":0.0,
        "La":0.0,
        "P":0.0,
        "S":0.0
    },
    {
  

Note: Composition_Wt_frac.json
[
    {
        "Alloy":"UNS R30003 Elgiloy",
        "Co_min":41.0,
        "Ni_min":16.0,
        "Cr_max":21.0,
        "Mo_max":8.0,
        "Mn_max":2.5,
        "Fe_max":0.0,
        "Si_max":1.2,
        "C_max":0.15,
        "W_max":0.0,
        "Others":"Be:0.1"
    },
    {
        "Alloy":"Stellite 6",
        "Co_min":55.0,
        "Ni_min":3.0,
        "Cr_max":29.0,
        "Mo_max":1.5,
        "Mn_max":1.0,
        "Fe_max":3.0,
        "Si_max":1.5,
        "C_max":1.2,
        "W_max":4.5,
        "Others":"0"
    },
    {
        "Alloy":"Tribaloy T400",
        "Co_min":60.0,
        "Ni_min":0.0,
        "Cr_max":8.5,
        "Mo_max":28.5,
        "Mn_max":0.0,
        "Fe_max":0.0,
        "Si_max":3.0,
        "C_max":0.1,
        "W_max":0.0,
        "Others":"0"
    },
    {
        "Alloy":"Stellite 21",
        "Co_min":59.0,
        "Ni_min":2.75,
        "Cr_max":27.0,
        "Mo_max":5.5,
        "Mn_max":1.0,
        "Fe_max":3.0,
        "Si_max":1.0,
        "C_max":0.25,
        "W_max":0.0,
        "Others":"B:0.3"
    },
    {
        "Alloy":"Haynes 25 (L605)",
        "Co_min":50.0,
        "Ni_min":10.0,
        "Cr_max":20.0,
        "Mo_max":0.0,
        "Mn_max":1.5,
        "Fe_max":3.0,
        "Si_max":0.4,
        "C_max":0.1,
        "W_max":15.0,
        "Others":"0"
    },
    {
        "Alloy":"MARM302",
        "Co_min":57.0,
        "Ni_min":0.0,
        "Cr_max":21.5,
        "Mo_max":0.0,
        "Mn_max":0.05,
        "Fe_max":0.75,
        "Si_max":0.1,
        "C_max":0.85,
        "W_max":10.0,
        "Others":"Cu:0.10,Ta:9,Zr:0.20,B:0.005"
    },
    {
        "Alloy":"FSX414",
        "Co_min":47.5,
        "Ni_min":11.0,
        "Cr_max":30.0,
        "Mo_max":0.0,
        "Mn_max":0.0,
        "Fe_max":2.0,
        "Si_max":1.0,
        "C_max":0.1,
        "W_max":6.0,
        "Others":"Al:1,Ta:1"
    },
    {
        "Alloy":"Ultimet(UNS R31233)",
        "Co_min":53.0,
        "Ni_min":9.0,
        "Cr_max":26.0,
        "Mo_max":5.0,
        "Mn_max":0.8,
        "Fe_max":3.0,
        "Si_max":0.3,
        "C_max":0.06,
        "W_max":2.0,
        "Others":"N:0.08"
    },
    {
        "Alloy":"INCONEL 740H",
        "Co_min":22.0,
        "Ni_min":38.0,
        "Cr_max":25.5,
        "Mo_max":2.0,
        "Mn_max":1.0,
        "Fe_max":3.0,
        "Si_max":1.0,
        "C_max":0.08,
        "W_max":0.0,
        "Others":"Cu:0.5,Nb:2.5,Al:2,Ti:2.5"
    },
    {
        "Alloy":"UNS R30075",
        "Co_min":57.0,
        "Ni_min":1.0,
        "Cr_max":30.0,
        "Mo_max":7.0,
        "Mn_max":1.0,
        "Fe_max":0.75,
        "Si_max":1.0,
        "C_max":0.35,
        "W_max":0.2,
        "Others":"N:0.25,Al:0.3"
    },
    {
        "Alloy":"MP35N",
        "Co_min":29.0,
        "Ni_min":37.0,
        "Cr_max":21.0,
        "Mo_max":10.5,
        "Mn_max":0.15,
        "Fe_max":1.0,
        "Si_max":0.15,
        "C_max":0.025,
        "W_max":0.0,
        "Others":"Ti

File: Cleaned_Data_perplexity.csv
Composition (wt%),Phases,Heat Treatment,Test Temperature (°C),Grain Size (μm),Dislocation Density (×10¹⁴ m⁻²),YS (MPa),UTS (MPa),Hardness (HV),Elongation (%),Strain Rate (s⁻¹),n,K (Mpa)
"Co: 0.60, Ni: 0.20, Al: 0.20",alpha,Annealing,25.0,64.47,1.85,284.03,661.91,105.27,29.57,0.47,0.1,252.79
"Co: 0.80, Ni: 0.10, Fe: 0.10",alpha,Annealing,300.0,29.67,9.22,282.39,432.03,479.37,5.39,0.31,0.11,296.32
"Co: 0.80, Ni: 0.10, Fe: 0.10",delta,Annealing,200.0,54.45,4.22,577.53,518.38,102.67,17.29,0.51,0.48,454.26
"Co: 0.60, Ni: 0.20, Al: 0.20",gamma,Annealing,300.0,51.43,5.11,339.83,785.98,376.54,15.75,0.67,0.38,112.1
"Co: 0.75, Ni: 0.15, B: 0.10",delta,Annealing,25.0,64.29,9.51,414.13,897.94,461.13,13.72,0.25,0.22,193.27
"Co: 0.70, Ni: 0.20, Si: 0.10",alpha,Tempering,25.0,66.49,3.27,502.13,992.8,464.92,16.42,0.36,0.44,228.46
"Co: 0.50, Ni: 0.30, W: 0.20",delta,Normalizing,100.0,19.99,7.16,502.13,710.9,420.8,10.71,0.47,0.18,296.32
"Co: 0.70, Ni: 0.20, Si: 0.10",beta,Quenching,400.0,50.18,9.39,201.35,992.59,330.59,25.65,0.63,0.13,262.92
"Co: 0.70, Ni: 0.15, Ti: 0.15",delta,Quenching,300.0,37.69,3.12,502.13,785.98,374.37,13.23,0.57,0.25,296.84
"Co: 0.70, Ni: 0.15, Si: 0.15",beta,Quenching,300.0,70.29,6.99,502.13,1026.33,205.4,25.62,0.5,0.23,387.54
"Co: 0.50, Ni: 0.30, W: 0.20",alpha,Tempering,200.0,61.65,0.79,673.68,818.94,240.11,12.69,0.24,0.49,465.21
"Co: 0.60, Ni: 0.25, Mn: 0.15",beta,Normalizing,200.0,81.45,0.75,699.74,836.99,125.33,16.42,0.6,0.35,206.06
"Co: 0.70, Ni: 0.20, Cr: 0.10",beta,Normalizing,400.0,84.97,9.4,362.74,1042.38,195.06,16.42,0.63,0.33,175.94
"Co: 0.60, Ni: 0.20, Ta: 0.20",beta,Quenching,100.0,12.55,9.56,589.94,416.17,427.88,21.09,0.93,0.5,434.89
"Co: 0.50, Ni: 0.30, W: 0.20",beta,Quenching,25.0,51.43,5.11,480.65,492.5,487.18,9.39,0.66,0.11,408.76
"Co: 0.60, Ni: 0.25, Nb: 0.15",beta,Quenching,25.0,75.31,0.31,549.55,548.44,244.71,7.53,0.54,0.31,362.59
"Co: 0.70, Ni: 0.15, Ti: 0.15",delta,Normalizing,100.0,63.47,5.11,744.15,771.51,334.62,28.33,0.4,0.31,296.32
"Co: 0.80, Ni: 0.10, Fe: 0.10",beta,Quenching,200.0,97.26,1.71,613.01,721.43,134.07,24.24,0.81,0.48,254.0
"Co: 0.60, Ni: 0.25, Mn: 0.15",beta,Annealing,25.0,21.71,2.32,697.78,1196.51,127.07,9.19,0.24,0.16,380.06
"Co: 0.40, Ni: 0.35, Mn: 0.25",beta,Quenching,300.0,31.59,4.62,276.37,1061.66,119.89,16.11,0.94,0.32,428.75
"Co: 0.70, Ni: 0.15, Ti: 0.15",beta,Quenching,25.0,39.87,3.75,342.95,964.77,426.84,11.65,0.71,0.46,496.56
"Co: 0.60, Ni: 0.25, Nb: 0.15",delta,Normalizing,300.0,8.39,1.61,218.62,932.88,471.58,8.21,0.33,0.33,351.84
"Co: 0.60, Ni: 0.20, Ta: 0.20",delta,Tempering,300.0,15.48,4.92,502.13,1097.89,112.01,6.63,0.01,0.48,387.78
"Co: 0.80, Ni: 0.10, Fe: 0.10",alpha,Tempering,200.0,53.72,4.56,476.95,785.98,120.04,16.42,0.83,0.33,427.39
"Co: 0.70, Ni: 0.20, Cr: 0.10",beta,Tempering,300.0,34.34,5.11,735.19,982.89,241.52,24.68,0.13,0.22,179.57
"Co: 0.70, Ni: 0.15, Ti: 0.15",delta,Tempering,200.0,48.1,0.52,600.4,506.58,314.44,16.93,0.44,0.31,108.42
"Co: 0.60, Ni: 0.20, Ta: 0.20",gamma,Normalizing,25.0,79.9,7.88,423.08,1187.37,407.43,16.42,0.24,0.33,294.46
"Co: 0.70, Ni: 0.20, C: 0.10",gamma,Quenching,25.0,90.19,7.31,793.97,853.15,306.25,16.42,0.74,0.33,296.32
"Co: 0.50, Ni: 0.30, Re: 0.20",beta,Normalizing,400.0,35.62,9.91,463.74,424.8,442.46,20.33,0.04,0.44,126.39
"Co: 0.65, Ni: 0.20, V: 0.15",alpha,Quenching,100.0,81.37,1.39,390.35,684.0,301.85,14.7,0.45,0.33,428.64
"Co: 0.70, Ni: 0.15, Ti: 0.15",alpha,Annealing,300.0,51.43,5.11,573.52,974.69,189.69,21.59,0.44,0.47,156.48
"Co: 0.65, Ni: 0.20, V: 0.15",gamma,Normalizing,200.0,3.03,9.71,373.12,808.39,306.25,14.03,0.14,0.18,155.71
"Co: 0.60, Ni: 0.30, Mo: 0.10",gamma,Quenching,100.0,55.12,3.84,781.13,1128.73,463.25,7.79,0.47,0.43,100.77
"Co: 0.60, Ni: 0.25, Nb: 0.15",alpha,Annealing,100.0,27.87,0.39,365.79,785.98,233.26,8.94,0.13,0.23,459.55
"Co: 0.60, Ni: 0.20, Al: 0.20",alpha,Tempering,200.0,87.35,1.33,571.87,740.79,306.25,27.74,0.1,0.37,228.3
"Co: 0.60, Ni: 0.20, Al: 0.20",alpha,Quenching,200.0,51.43,5.74,371.83,803.96,457.63,7.85,0.46,0.17,262.24
"Co: 0.50, Ni: 0.30, W: 0.20",alpha,Annealing,25.0,65.2,3.37,502.13,405.48,373.39,10.24,0.18,0.44,277.74
"Co: 0.70, Ni: 0.20, C: 0.10",delta,Normalizing,300.0,30.69,2.79,763.9,1199.59,306.25,16.22,0.22,0.16,218.86
"Co: 0.60, Ni: 0.25, Nb: 0.15",delta,Quenching,300.0,38.78,4.08,469.65,537.22,255.78,6.04,0.28,0.36,460.34
"Co: 0.70, Ni: 0.5, Zr: 0.15",delta,Annealing,300.0,87.94,8.48,502.13,618.47,455.3,17.94,0.84,0.32,334.38
"Co: 0.50, Ni: 0.30, W: 0.20",alpha,Quenching,300.0,27.52,7.49,502.13,694.05,303.85,6.29,0.73,0.25,260.48
"Co: 0.60, Ni: 0.25, Mn: 0.15",delta,Quenching,25.0,32.24,5.53,502.13,534.22,236.87,6.32,0.05,0.31,234.08
"Co: 0.75, Ni: 0.15, B: 0.10",alpha,Normalizing,200.0,44.11,8.54,218.46,785.98,164.39,29.48,0.92,0.29,486.76
"Co: 0.70, Ni: 0.20, Cr: 0.10",gamma,Tempering,400.0,51.43,9.59,255.75,731.56,432.44,11.01,0.23,0.45,186.23
"Co: 0.50, Ni: 0.30, Re: 0.20",alpha,Normalizing,300.0,93.46,1.9,502.13,662.05,336.52,27.8,0.44,0.35,160.78
"Co: 0.60, Ni: 0.20, Ta: 0.20",beta,Tempering,400.0,61.19,8.1,438.07,1043.79,431.86,24.22,0.47,0.33,409.78
"Co: 0.65, Ni: 0.20, V: 0.15",alpha,Tempering,400.0,75.25,6.08,401.39,487.51,187.67,29.76,0.38,0.3,296.32
"Co: 0.60, Ni: 0.15, Zn: 0.25",beta,Tempering,300.0,37.24,0.46,554.56,662.5,306.25,25.78,0.91,0.14,209.65
"Co: 0.70, Ni: 0.15, Ti: 0.15",beta,Normalizing,25.0,89.03,9.25,511.2,1041.36,347.4,22.6,0.34,0.11,356.47
"Co: 0.60, Ni: 0.25, Mn: 0.15",gamma,Normalizing,200.0,84.75,7.51,479.29,785.98,277.42,17.76,0.44,0.44,406.66
"Co: 0.50, Ni: 0.30, W: 0.20",beta,Quenching,200.0,90.72,4.68,502.13,445.86,306.25,20.97,0.83,0.49,169.1
"Co: 0.70, Ni: 0.15, Ti: 0.15",alpha,Tempering,200.0,21.37,7.59,315.28,425.02,262.93,11.04,0.2,0.45,480.84
"Co: 0.60, Ni: 0.25, Nb: 0.15",alpha,Normalizing,400.0,63.38,6.49,676.58,1033.31,483.39,6.89,0.49,0.31,381.98
"Co: 0.65, Ni: 0.20, V: 0.15",beta,Annealing,400.0,9.63,4.29,786.14,953.17,266.45,23.86,0.47,0.31,236.37
"Co: 0.65, Ni: 0.20, V: 0.15",gamma,Quenching,200.0,51.43,2.3,610.5,797.72,488.51,12.33,0.47,0.21,296.32
"Co: 0.60, Ni: 0.25, Nb: 0.15",gamma,Normalizing,25.0,35.05,5.05,619.37,695.28,243.22,12.49,0.56,0.32,139.62
"Co: 0.75, Ni: 0.15, B: 0.10",beta,Normalizing,25.0,8.79,5.11,502.13,675.92,131.43,8.11,0.89,0.13,360.21
"Co: 0.55, Ni: 0.20, Cr: 0.25",alpha,Quenching,200.0,5.15,8.21,404.8,1090.88,338.98,12.01,0.45,0.19,193.88
"Co: 0.60, Ni: 0.25, Mn: 0.15",alpha,Quenching,300.0,71.3,1.54,795.17,640.31,337.44,28.82,0.59,0.48,322.94
"Co: 0.50, Ni: 0.30, Zr: 0.20",gamma,Annealing,25.0,56.82,5.71,532.59,837.34,243.22,22.01,0.37,0.31,245.58